USUBJID,VISITNUM,LBDTC,LBTESTCD,LBORRES,LBSTRESN,LBSTRESU
01-001,1,2026-01-01,HBA1C,7.1,7.1,%
01-001,2,2026-01-15,HBA1C,6.8,6.8,%
01-002,1,2026-01-02,HBA1C,8.2,8.2,%
01-002,2,2026-01-16,HBA1C,7.9,7.9,%
01-003,1,2026-01-03,HBA1C,5.9,5.9,%
01-003,2,2026-01-17,HBA1C,6.0,6.0,%
01-004,1,2026-01-04,HBA1C,9.1,9.1,%
01-004,2,2026-01-18,HBA1C,9.0,9.0,%
