{"created_by":{"git_sha":"f0f4091015c86520e01e480a9b3af187a90692c3","sans_version":"0.1.0"},"datasources":[{"columns":[{"name":"USUBJID","type":"string"},{"name":"VISITNUM","type":"int"},{"name":"LBDTC","type":"string"},{"name":"LBTESTCD","type":"string"},{"name":"LBORRES","type":"decimal"},{"name":"LBSTRESN","type":"decimal"},{"name":"LBSTRESU","type":"string"}],"inference_policy_version":1,"kind":"csv","name":"lb","path":"lb.csv","rows_scanned":8,"rules":{"extra_columns":"ignore","missing_columns":"error"},"truncated":false}],"schema_lock_version":1}