{
  "steps": [
    {
      "kind": "op",
      "loc": {
        "file": "demo_low.sans",
        "line_start": 3,
        "line_end": 3
      },
      "op": "datasource",
      "inputs": [],
      "outputs": [
        "__datasource__lb"
      ],
      "params": {
        "name": "lb",
        "path": "lb.csv",
        "columns": [
          "USUBJID",
          "VISITNUM",
          "LBDTC",
          "LBTESTCD",
          "LBORRES",
          "LBSTRESN",
          "LBSTRESU"
        ],
        "kind": "csv"
      },
      "transform_id": "43a1ed8797a1fe11c7c63ce896e41537538e1cdf1461c931585441e2613a2a82",
      "transform_class_id": "cdba8b0955dbc33e2ae62112824b888005885582fd059d62450d21b645486315",
      "step_id": "790a6566f43bc73a29be7660f60fe73db08743f4a1936fbd276051d3a94c6aab"
    },
    {
      "kind": "op",
      "loc": {
        "file": "demo_low.sans",
        "line_start": 5,
        "line_end": 5
      },
      "op": "identity",
      "inputs": [
        "__datasource__lb"
      ],
      "outputs": [
        "__t2__"
      ],
      "params": {
        "source": {
          "kind": "datasource",
          "name": "lb"
        }
      },
      "transform_id": "fe25d69c13dce5671c86af62eda7810c69d786d3c9ca3d5b70413046de686234",
      "transform_class_id": "d40472f932e0711aaefece7b0c838907c6b7f98ecfe54dfb2f3aca7a2110bfa3",
      "step_id": "dbdc0365592a1e43bb9ccf61d49686f26b9e8d3d9a22cc5816819105a62120c2"
    },
    {
      "kind": "op",
      "loc": {
        "file": "demo_low.sans",
        "line_start": 6,
        "line_end": 6
      },
      "op": "filter",
      "inputs": [
        "__t2__"
      ],
      "outputs": [
        "__t3__"
      ],
      "params": {
        "predicate": {
          "type": "binop",
          "op": "=",
          "left": {
            "type": "col",
            "name": "LBTESTCD"
          },
          "right": {
            "type": "lit",
            "value": "HBA1C"
          }
        }
      },
      "transform_id": "7bee27ff66f741a90565a4615166af3dd7b2fb3a2cc257ada0d142231363fd41",
      "transform_class_id": "d99bca8274286937f8e14b78a07831405f465fb26948f367304198d5b0340ec5",
      "step_id": "64297c96f101cd97fc3964bcc39c199503252604de0a5813373bac63d6c10e15"
    },
    {
      "kind": "op",
      "loc": {
        "file": "demo_low.sans",
        "line_start": 7,
        "line_end": 7
      },
      "op": "rename",
      "inputs": [
        "__t3__"
      ],
      "outputs": [
        "__t4__"
      ],
      "params": {
        "mapping": [
          {
            "from": "LBSTRESN",
            "to": "A1C"
          }
        ]
      },
      "transform_id": "14818f3451646299d6bcfc1111200c3f5dfe610bbe62e01fa1aa7d2a549426e5",
      "transform_class_id": "a4154198247b63b734450378c55a2606c4ec22d6221b0251fab16e6157da8949",
      "step_id": "497ddf77c21120cb848e24407bcf194f371da0c1363c6856d07c52aaa795916f"
    },
    {
      "kind": "op",
      "loc": {
        "file": "demo_low.sans",
        "line_start": 8,
        "line_end": 8
      },
      "op": "select",
      "inputs": [
        "__t4__"
      ],
      "outputs": [
        "__t5__"
      ],
      "params": {
        "cols": [
          "USUBJID",
          "VISITNUM",
          "LBDTC",
          "A1C"
        ]
      },
      "transform_id": "f221e7ba651497e4b33d372f948769c54b9b2b9d99a2b0f9c87880a72642e3a9",
      "transform_class_id": "95f571e32194550626771f0c5dcba594a2c9453d696879985295aa17283f5b2e",
      "step_id": "0ad94189bd01382118828cf699d5f47029fed5f0210cc9f82fc88f6f2aedd61b"
    },
    {
      "kind": "op",
      "loc": {
        "file": "demo_low.sans",
        "line_start": 9,
        "line_end": 9
      },
      "op": "compute",
      "inputs": [
        "__t5__"
      ],
      "outputs": [
        "__t6__"
      ],
      "params": {
        "mode": "derive",
        "assignments": [
          {
            "target": "label",
            "expr": {
              "type": "lit",
              "value": "LOW"
            }
          }
        ]
      },
      "transform_id": "fbd20e998b400b8fac9b2d770aa99f35b480890e5023f0b16cf5bba40fdd0e1d",
      "transform_class_id": "fa8c56da142b76d17725eb2b3e1866ac64936bdda1eaf51e33d0da482cf29ebc",
      "step_id": "69728de3a60136348e04b8b83b67930b65bf7a624234f71325deb4986ca6a246"
    },
    {
      "kind": "op",
      "loc": {
        "file": "demo_low.sans",
        "line_start": 10,
        "line_end": 10
      },
      "op": "select",
      "inputs": [
        "__t6__"
      ],
      "outputs": [
        "sorted_high"
      ],
      "params": {
        "cols": [
          "USUBJID",
          "VISITNUM",
          "A1C",
          "label"
        ]
      },
      "transform_id": "7f3313988b91495614a5bb866b68bfe7dc0c9cdcc564f0555284b47d8063354c",
      "transform_class_id": "d6c5f78dc438ef549d6ec66d4f2a5d472b763de0c6b205d1191a717d1b040c0f",
      "step_id": "60b123c33d1b3e0f160d375c4de080ae41f3ccb8478018b066a135b595be114d"
    },
    {
      "kind": "op",
      "loc": {
        "file": "demo_low.sans",
        "line_start": 13,
        "line_end": 13
      },
      "op": "save",
      "inputs": [
        "sorted_high"
      ],
      "outputs": [],
      "params": {
        "path": "sorted_high.csv",
        "name": null
      },
      "transform_id": "834fb5742e488c87231f992ef4f39b91dbc4e52e2532e7d24a44e26ab4ccfd42",
      "transform_class_id": "5a1188cff3cd87f88f432bd20a02fc03597e394927201e43dbe5e445df5cabfb",
      "step_id": "b717b0886f26c9b0c8938aa677f729723c13719738cf1aa2d24220e39f3de98a"
    }
  ],
  "tables": [],
  "table_facts": {
    "__t2__": {
      "sorted_by": null
    },
    "__t3__": {
      "sorted_by": null
    },
    "__t4__": {
      "sorted_by": null
    },
    "__t5__": {
      "sorted_by": null
    },
    "__t6__": {
      "sorted_by": null
    },
    "sorted_high": {
      "sorted_by": null
    }
  },
  "datasources": {
    "lb": {
      "path": "lb.csv",
      "columns": [
        "USUBJID",
        "VISITNUM",
        "LBDTC",
        "LBTESTCD",
        "LBORRES",
        "LBSTRESN",
        "LBSTRESU"
      ]
    }
  }
}