{
  "sans_version": "0.1.0",
  "plan_ir": {
    "path": "artifacts/plan.ir.json",
    "sha256": "ddd5e14263471a608afaa10d18c35ee9f827216dd6524cd7c5c112f48232306e"
  },
  "bindings": {},
  "inputs": [],
  "outputs": [
    {
      "name": "sorted_high",
      "path": "outputs/sorted_high.csv",
      "row_count": 8,
      "columns": [
        "USUBJID",
        "VISITNUM",
        "A1C",
        "label"
      ]
    }
  ],
  "step_evidence": [
    {
      "step_index": 0,
      "step_id": "790a6566f43bc73a29be7660f60fe73db08743f4a1936fbd276051d3a94c6aab",
      "transform_id": "43a1ed8797a1fe11c7c63ce896e41537538e1cdf1461c931585441e2613a2a82",
      "op": "datasource",
      "inputs": [],
      "outputs": [
        "__datasource__lb"
      ],
      "row_counts": {
        "__datasource__lb": 8
      }
    },
    {
      "step_index": 1,
      "step_id": "dbdc0365592a1e43bb9ccf61d49686f26b9e8d3d9a22cc5816819105a62120c2",
      "transform_id": "fe25d69c13dce5671c86af62eda7810c69d786d3c9ca3d5b70413046de686234",
      "op": "identity",
      "inputs": [
        "__datasource__lb"
      ],
      "outputs": [
        "__t2__"
      ],
      "row_counts": {
        "__t2__": 8
      }
    },
    {
      "step_index": 2,
      "step_id": "64297c96f101cd97fc3964bcc39c199503252604de0a5813373bac63d6c10e15",
      "transform_id": "7bee27ff66f741a90565a4615166af3dd7b2fb3a2cc257ada0d142231363fd41",
      "op": "filter",
      "inputs": [
        "__t2__"
      ],
      "outputs": [
        "__t3__"
      ],
      "row_counts": {
        "__t3__": 8
      }
    },
    {
      "step_index": 3,
      "step_id": "497ddf77c21120cb848e24407bcf194f371da0c1363c6856d07c52aaa795916f",
      "transform_id": "14818f3451646299d6bcfc1111200c3f5dfe610bbe62e01fa1aa7d2a549426e5",
      "op": "rename",
      "inputs": [
        "__t3__"
      ],
      "outputs": [
        "__t4__"
      ],
      "row_counts": {
        "__t4__": 8
      }
    },
    {
      "step_index": 4,
      "step_id": "0ad94189bd01382118828cf699d5f47029fed5f0210cc9f82fc88f6f2aedd61b",
      "transform_id": "f221e7ba651497e4b33d372f948769c54b9b2b9d99a2b0f9c87880a72642e3a9",
      "op": "select",
      "inputs": [
        "__t4__"
      ],
      "outputs": [
        "__t5__"
      ],
      "row_counts": {
        "__t5__": 8
      }
    },
    {
      "step_index": 5,
      "step_id": "75ea185ce6dd5b1eb4a602a4f0180e13e33798dbf0dd469fb6a4aaad754b03c3",
      "transform_id": "1296e8a6f545713327120baf647835174f864f46ffe0d8676240661a66e74112",
      "op": "compute",
      "inputs": [
        "__t5__"
      ],
      "outputs": [
        "__t6__"
      ],
      "row_counts": {
        "__t6__": 8
      }
    },
    {
      "step_index": 6,
      "step_id": "60b123c33d1b3e0f160d375c4de080ae41f3ccb8478018b066a135b595be114d",
      "transform_id": "7f3313988b91495614a5bb866b68bfe7dc0c9cdcc564f0555284b47d8063354c",
      "op": "select",
      "inputs": [
        "__t6__"
      ],
      "outputs": [
        "sorted_high"
      ],
      "row_counts": {
        "sorted_high": 8
      }
    },
    {
      "step_index": 7,
      "step_id": "b717b0886f26c9b0c8938aa677f729723c13719738cf1aa2d24220e39f3de98a",
      "transform_id": "834fb5742e488c87231f992ef4f39b91dbc4e52e2532e7d24a44e26ab4ccfd42",
      "op": "save",
      "inputs": [
        "sorted_high"
      ],
      "outputs": [],
      "row_counts": {
        "sorted_high": 8
      }
    }
  ],
  "tables": {
    "__t6__": {
      "row_count": 8,
      "columns": {
        "A1C": {
          "null_count": 0,
          "non_null_count": 8,
          "unique_count": 8,
          "unique_count_capped": false,
          "top_values": [
            {
              "value": "5.9",
              "count": 1
            },
            {
              "value": "6",
              "count": 1
            },
            {
              "value": "6.8",
              "count": 1
            },
            {
              "value": "7.1",
              "count": 1
            },
            {
              "value": "7.9",
              "count": 1
            }
          ],
          "type_hint": "decimal"
        },
        "LBDTC": {
          "null_count": 0,
          "non_null_count": 8,
          "unique_count": 8,
          "unique_count_capped": false,
          "top_values": [
            {
              "value": "2026-01-01",
              "count": 1
            },
            {
              "value": "2026-01-02",
              "count": 1
            },
            {
              "value": "2026-01-03",
              "count": 1
            },
            {
              "value": "2026-01-04",
              "count": 1
            },
            {
              "value": "2026-01-15",
              "count": 1
            }
          ],
          "type_hint": "string"
        },
        "USUBJID": {
          "null_count": 0,
          "non_null_count": 8,
          "unique_count": 4,
          "unique_count_capped": false,
          "top_values": [
            {
              "value": "01-001",
              "count": 2
            },
            {
              "value": "01-002",
              "count": 2
            },
            {
              "value": "01-003",
              "count": 2
            },
            {
              "value": "01-004",
              "count": 2
            }
          ],
          "type_hint": "string"
        },
        "VISITNUM": {
          "null_count": 0,
          "non_null_count": 8,
          "unique_count": 2,
          "unique_count_capped": false,
          "top_values": [
            {
              "value": 1,
              "count": 4
            },
            {
              "value": 2,
              "count": 4
            }
          ],
          "type_hint": "int"
        },
        "label": {
          "null_count": 0,
          "non_null_count": 8,
          "unique_count": 1,
          "unique_count_capped": false,
          "constant_value": "HIGH",
          "top_values": [
            {
              "value": "HIGH",
              "count": 8
            }
          ],
          "type_hint": "string"
        }
      }
    },
    "sorted_high": {
      "row_count": 8,
      "columns": {
        "A1C": {
          "null_count": 0,
          "non_null_count": 8,
          "unique_count": 8,
          "unique_count_capped": false,
          "top_values": [
            {
              "value": "5.9",
              "count": 1
            },
            {
              "value": "6",
              "count": 1
            },
            {
              "value": "6.8",
              "count": 1
            },
            {
              "value": "7.1",
              "count": 1
            },
            {
              "value": "7.9",
              "count": 1
            }
          ],
          "type_hint": "decimal"
        },
        "USUBJID": {
          "null_count": 0,
          "non_null_count": 8,
          "unique_count": 4,
          "unique_count_capped": false,
          "top_values": [
            {
              "value": "01-001",
              "count": 2
            },
            {
              "value": "01-002",
              "count": 2
            },
            {
              "value": "01-003",
              "count": 2
            },
            {
              "value": "01-004",
              "count": 2
            }
          ],
          "type_hint": "string"
        },
        "VISITNUM": {
          "null_count": 0,
          "non_null_count": 8,
          "unique_count": 2,
          "unique_count_capped": false,
          "top_values": [
            {
              "value": 1,
              "count": 4
            },
            {
              "value": 2,
              "count": 4
            }
          ],
          "type_hint": "int"
        },
        "label": {
          "null_count": 0,
          "non_null_count": 8,
          "unique_count": 1,
          "unique_count_capped": false,
          "constant_value": "HIGH",
          "top_values": [
            {
              "value": "HIGH",
              "count": 8
            }
          ],
          "type_hint": "string"
        }
      }
    }
  },
  "datasources": {
    "lb": {
      "kind": "csv",
      "path": "inputs/data/lb.csv",
      "columns": [
        "USUBJID",
        "VISITNUM",
        "LBDTC",
        "LBTESTCD",
        "LBORRES",
        "LBSTRESN",
        "LBSTRESU"
      ]
    }
  }
}