{"edges":[{"dst":"v:__t4__.A1C","src":"v:__t3__.LBSTRESN"},{"dst":"v:__t5__.A1C","src":"v:__t4__.A1C"},{"dst":"v:__t5__.LBDTC","src":"v:__t4__.LBDTC"},{"dst":"v:__t5__.USUBJID","src":"v:__t4__.USUBJID"},{"dst":"v:__t5__.VISITNUM","src":"v:__t4__.VISITNUM"},{"dst":"v:__t6__.A1C","src":"v:__t5__.A1C"},{"dst":"v:__t6__.LBDTC","src":"v:__t5__.LBDTC"},{"dst":"v:__t6__.USUBJID","src":"v:__t5__.USUBJID"},{"dst":"v:__t6__.VISITNUM","src":"v:__t5__.VISITNUM"},{"dst":"v:sorted_high.A1C","src":"v:__t6__.A1C"},{"dst":"v:sorted_high.USUBJID","src":"v:__t6__.USUBJID"},{"dst":"v:sorted_high.VISITNUM","src":"v:__t6__.VISITNUM"},{"dst":"v:sorted_high.label","src":"v:__t6__.label"}],"nodes":[{"col":"LBDTC","id":"v:__datasource__lb.LBDTC","kind":"variable","origin":"source","payload_sha256":null,"producing_step_id":null,"table_id":"__datasource__lb","transform_id":null},{"col":"LBORRES","id":"v:__datasource__lb.LBORRES","kind":"variable","origin":"source","payload_sha256":null,"producing_step_id":null,"table_id":"__datasource__lb","transform_id":null},{"col":"LBSTRESN","id":"v:__datasource__lb.LBSTRESN","kind":"variable","origin":"source","payload_sha256":null,"producing_step_id":null,"table_id":"__datasource__lb","transform_id":null},{"col":"LBSTRESU","id":"v:__datasource__lb.LBSTRESU","kind":"variable","origin":"source","payload_sha256":null,"producing_step_id":null,"table_id":"__datasource__lb","transform_id":null},{"col":"LBTESTCD","id":"v:__datasource__lb.LBTESTCD","kind":"variable","origin":"source","payload_sha256":null,"producing_step_id":null,"table_id":"__datasource__lb","transform_id":null},{"col":"USUBJID","id":"v:__datasource__lb.USUBJID","kind":"variable","origin":"source","payload_sha256":null,"producing_step_id":null,"table_id":"__datasource__lb","transform_id":null},{"col":"VISITNUM","id":"v:__datasource__lb.VISITNUM","kind":"variable","origin":"source","payload_sha256":null,"producing_step_id":null,"table_id":"__datasource__lb","transform_id":null},{"col":"LBSTRESN","id":"v:__t3__.LBSTRESN","kind":"variable","origin":"pass_through","payload_sha256":null,"producing_step_id":null,"table_id":"__t3__","transform_id":null},{"col":"A1C","id":"v:__t4__.A1C","kind":"variable","origin":"derived","payload_sha256":"68d92221aa9db54f3b6e06c79e66dfcbca88c5ab9bbbb79efb0a07ea862d2c79","producing_step_id":"497ddf77c21120cb848e24407bcf194f371da0c1363c6856d07c52aaa795916f","table_id":"__t4__","transform_id":"14818f3451646299d6bcfc1111200c3f5dfe610bbe62e01fa1aa7d2a549426e5"},{"col":"LBDTC","id":"v:__t4__.LBDTC","kind":"variable","origin":"pass_through","payload_sha256":null,"producing_step_id":null,"table_id":"__t4__","transform_id":null},{"col":"USUBJID","id":"v:__t4__.USUBJID","kind":"variable","origin":"pass_through","payload_sha256":null,"producing_step_id":null,"table_id":"__t4__","transform_id":null},{"col":"VISITNUM","id":"v:__t4__.VISITNUM","kind":"variable","origin":"pass_through","payload_sha256":null,"producing_step_id":null,"table_id":"__t4__","transform_id":null},{"col":"A1C","id":"v:__t5__.A1C","kind":"variable","origin":"pass_through","payload_sha256":null,"producing_step_id":null,"table_id":"__t5__","transform_id":null},{"col":"LBDTC","id":"v:__t5__.LBDTC","kind":"variable","origin":"pass_through","payload_sha256":null,"producing_step_id":null,"table_id":"__t5__","transform_id":null},{"col":"USUBJID","id":"v:__t5__.USUBJID","kind":"variable","origin":"pass_through","payload_sha256":null,"producing_step_id":null,"table_id":"__t5__","transform_id":null},{"col":"VISITNUM","id":"v:__t5__.VISITNUM","kind":"variable","origin":"pass_through","payload_sha256":null,"producing_step_id":null,"table_id":"__t5__","transform_id":null},{"col":"A1C","id":"v:__t6__.A1C","kind":"variable","origin":"pass_through","payload_sha256":null,"producing_step_id":null,"table_id":"__t6__","transform_id":null},{"col":"LBDTC","id":"v:__t6__.LBDTC","kind":"variable","origin":"pass_through","payload_sha256":null,"producing_step_id":null,"table_id":"__t6__","transform_id":null},{"col":"USUBJID","id":"v:__t6__.USUBJID","kind":"variable","origin":"pass_through","payload_sha256":null,"producing_step_id":null,"table_id":"__t6__","transform_id":null},{"col":"VISITNUM","id":"v:__t6__.VISITNUM","kind":"variable","origin":"pass_through","payload_sha256":null,"producing_step_id":null,"table_id":"__t6__","transform_id":null},{"col":"label","expr_sha256":"53e484b645e480a4896cf76a414c449ef7fb787f5fc3a1e93acf78dc33f38028","id":"v:__t6__.label","kind":"variable","origin":"derived","payload_sha256":"aa740b11e5ee201617c1f5507f4c172843252d62239d05bea2e6aa6675c13f49","producing_step_id":"75ea185ce6dd5b1eb4a602a4f0180e13e33798dbf0dd469fb6a4aaad754b03c3","table_id":"__t6__","transform_id":"1296e8a6f545713327120baf647835174f864f46ffe0d8676240661a66e74112"},{"col":"A1C","id":"v:sorted_high.A1C","kind":"variable","origin":"pass_through","payload_sha256":null,"producing_step_id":null,"table_id":"sorted_high","transform_id":null},{"col":"USUBJID","id":"v:sorted_high.USUBJID","kind":"variable","origin":"pass_through","payload_sha256":null,"producing_step_id":null,"table_id":"sorted_high","transform_id":null},{"col":"VISITNUM","id":"v:sorted_high.VISITNUM","kind":"variable","origin":"pass_through","payload_sha256":null,"producing_step_id":null,"table_id":"sorted_high","transform_id":null},{"col":"label","id":"v:sorted_high.label","kind":"variable","origin":"pass_through","payload_sha256":null,"producing_step_id":null,"table_id":"sorted_high","transform_id":null}]}
